File: apns/split-apns/xrd
137-13-313-014
137-13-813-057
138-17-512-067
138-14-601-019
124-17-110-131
125-34-310-035
164-01-814-011
179-30-411-004
163-24-112-012
163-22-711-257
162-18-617-086
162-18-617-114
138-19-710-017
162-25-716-041
125-12-510-066
125-28-710-064
138-02-412-011
163-32-114-038
176-20-111-095
161-04-816-024
162-12-213-024
140-27-813-062
126-13-213-142
137-24-211-057
164-36-712-031
178-10-217-032
162-25-314-026
126-25-110-002
164-23-516-014
162-03-213-045
138-08-412-021
177-15-415-007
179-05-513-142
125-16-317-024
160-27-719-042
139-20-816-019
161-17-616-049
139-22-312-025
124-27-217-088
177-15-212-003
140-22-212-005
178-21-514-002
179-34-615-079
001-08-210-030
177-26-417-017
177-16-102-025
138-08-714-006
125-24-304-001
177-23-110-033
162-10-212-095
162-02-210-092
139-06-310-048
176-21-101-048
138-33-418-039
138-33-319-014
163-05-813-014
138-16-611-028
138-19-612-010
163-18-813-021
177-13-621-033
178-01-715-134
190-18-416-005
162-02-811-170
163-12-307-001
177-25-611-006
137-34-213-026
138-18-113-024
162-27-612-049
138-02-610-016
162-25-615-107
125-19-810-019
176-14-113-189
125-18-111-110
191-11-411-007
162-10-713-002
138-28-810-010
125-09-311-024
137-35-319-008
191-11-711-051
125-35-710-051
125-25-712-066
125-25-816-012
124-31-610-079
125-27-219-033
125-05-317-004
139-08-110-016
176-02-810-134
163-08-310-005
176-12-110-149
138-19-615-055
138-32-812-004
176-16-511-003
176-15-610-074
138-20-711-009
163-23-113-129
163-24-114-167
137-35-418-051
163-25-313-024
176-10-513-021
178-08-814-045
139-16-610-140
140-27-110-062
176-24-310-068
176-13-112-011
163-14-610-008
163-23-502-003
163-20-513-068
163-17-513-001
190-06-412-063
138-01-119-023
162-25-612-275
162-25-612-276
161-17-213-034
139-03-312-130
125-27-710-057
124-29-711-019
179-21-112-009
125-07-811-051
125-13-213-023
137-14-711-034
139-16-610-341
139-16-610-317
139-16-610-340
176-24-413-006
140-22-814-011
177-20-304-005
125-08-811-065
125-21-312-029
125-10-515-007
137-25-416-016
138-27-613-010
139-09-220-068
138-09-323-141
139-20-419-026
139-24-610-097
162-06-310-013
162-06-310-048
139-19-214-033
140-08-110-014
125-25-112-036
137-12-616-035
125-12-212-056
161-28-212-026
176-15-510-026
176-20-110-072
176-29-710-006
140-32-414-019
177-13-817-046
138-26-412-051
139-20-715-074
140-34-612-009
161-27-110-036
161-05-215-045
125-27-811-033
124-20-311-108
125-17-520-002
162-02-811-254
177-12-617-014
186-05-811-052
186-05-810-044
186-05-810-042
163-07-614-006
176-20-112-037
139-30-411-023
125-12-711-050
178-19-110-014
138-08-810-179
138-02-811-015
160-22-217-020
163-15-311-007
162-06-213-006
138-10-610-013
138-18-113-085
138-16-517-154
186-10-112-021
125-33-702-004
124-07-711-064
138-10-615-040
190-06-311-095
138-23-714-001
138-14-310-030
138-28-217-061
163-09-614-010
137-25-615-023
138-26-312-018
138-21-713-005
138-27-214-013
138-27-214-045
138-27-117-061
161-09-710-093
178-22-110-010
138-14-310-022
138-33-223-005
137-25-812-015
161-22-315-052
161-09-710-090
138-03-819-069
137-36-111-045
161-07-105-002
161-07-301-001
161-07-201-006
161-07-201-007
162-12-601-008
162-12-601-001
162-12-601-007
138-17-111-052
161-04-711-040
163-08-310-007
163-26-214-362
160-31-711-006
178-15-813-049
176-03-510-050
177-24-510-027
138-04-710-023
162-17-602-007
177-13-312-015
162-20-801-013
162-20-801-019
162-17-701-001
162-17-602-002
162-17-602-003
162-17-602-004
162-17-602-005
179-31-117-018
138-07-811-051
137-35-621-009
138-27-413-123
124-27-616-010
179-28-714-031
163-21-613-073
124-07-410-068
137-13-815-066
138-11-110-013
178-23-512-058
140-15-820-032
179-29-415-042
140-20-416-044
162-01-704-005
178-01-301-018
162-21-315-416
162-21-315-414
162-20-312-191
161-15-511-064
179-29-515-020
140-15-310-006
140-07-115-053
124-27-313-030
126-13-713-193
138-26-210-008
163-31-514-019
163-31-417-038
162-12-214-037
161-11-219-051
161-04-710-045
162-26-810-206
176-08-412-075
163-06-611-035
140-19-813-004
138-35-614-065
162-13-712-063
178-29-513-047
177-31-815-125
161-15-815-050
140-21-202-021
002-25-710-002
002-25-310-102
140-21-510-229
140-31-817-004
161-04-620-011
124-33-212-010
163-22-213-011
140-30-210-084
137-25-117-010
137-26-414-035
161-28-213-018
163-22-712-032
124-31-210-060
163-15-810-091
140-31-711-034
140-29-714-013
139-06-710-088
125-20-212-014
161-04-617-062
176-35-511-017
163-15-411-064
176-29-313-017
123-31-511-080
001-17-813-081
161-05-510-030
162-11-714-007
139-03-515-003
137-36-212-008
124-28-214-019
137-34-816-105
163-21-111-013
140-33-610-035
139-26-611-107
163-30-414-050
163-30-610-068
176-06-515-062
176-11-810-148
139-20-715-129
124-33-511-011
162-03-721-003
139-07-612-012
161-10-710-270
177-31-519-024
163-07-812-125
139-07-719-006
164-12-414-055
163-14-212-022
163-26-613-067
139-25-214-043
139-25-511-019
139-25-511-083
161-20-111-021
124-25-412-016
161-28-612-019
178-23-215-017
176-11-815-013
186-08-810-002
137-25-318-040
163-32-114-035
138-26-211-051
177-27-613-020
138-34-310-035
139-08-614-039
138-10-511-020
161-28-612-024
162-02-811-238
161-26-110-050
161-03-215-050
139-13-311-032
139-16-610-282
163-17-610-009
163-23-710-123
139-26-711-024
139-26-710-083
176-29-812-013
139-35-510-106
139-31-312-035
161-05-810-100
125-10-216-022
125-08-612-011
200-22-701-031
138-07-813-006
178-06-610-006
138-08-510-002
163-13-322-007
176-28-514-061
176-28-211-074
124-26-216-003
139-25-110-001
177-26-110-195
161-26-311-054
162-20-312-148
125-16-713-036
176-06-618-012
160-32-812-006
125-08-222-018
126-13-818-009
191-04-311-095
139-35-610-013
124-30-713-009
140-32-314-020
177-34-511-089
139-04-412-019
139-10-212-019
124-20-111-176
162-10-212-357
162-12-617-048
177-26-211-054
178-29-513-061
123-30-312-061
140-34-412-059
163-06-216-006
176-34-810-053
139-05-104-002
140-07-510-021
163-33-811-088
125-17-412-048
161-10-510-086
164-12-813-049
176-26-719-017
176-06-619-033
124-20-811-002
177-14-211-029
177-13-619-010
138-28-122-057
140-27-512-003
125-28-810-072
176-14-615-005
176-11-611-050
139-25-511-077
161-06-818-038
177-36-312-027
179-20-711-027
140-28-111-026
163-34-210-005
179-30-418-070
138-02-210-040
140-26-410-039
177-12-712-064
140-07-516-012
124-33-416-113
124-33-416-068
176-35-513-019
139-05-217-003
191-04-213-002
161-30-113-015
161-17-615-007
139-10-113-002
177-36-714-002
161-06-713-008
179-18-710-165
161-29-513-026
161-03-414-026
176-27-822-001
140-18-311-025
139-23-410-186
163-33-811-106
138-36-111-026
140-04-110-016
161-05-310-096
177-20-810-017
139-09-615-032
161-26-211-059
163-01-710-001
163-20-718-031
161-15-815-039
161-30-611-045
178-02-511-007
140-05-313-026
138-25-611-006
163-27-110-034
163-27-114-009
162-18-617-150
138-36-316-015
138-10-513-013
176-08-117-081
161-04-412-040
138-21-717-031
176-36-618-023
177-21-514-081
161-20-113-026
125-34-215-002
139-35-513-014
163-23-712-035
162-14-114-040
138-01-402-005
163-17-510-108
125-27-311-042
264-28-112-015
161-05-211-008
140-28-111-011
123-31-112-032
139-24-411-036
163-16-713-004
162-12-710-009
161-09-513-110
163-09-816-039
138-36-712-028
140-31-717-030
162-07-514-046
161-22-311-100
162-01-310-064
176-12-112-028
161-21-510-092
161-17-511-066
138-35-218-032
139-09-113-031
177-21-413-036
161-07-610-071
138-21-413-018
138-26-215-039
138-26-111-073
139-07-317-012
138-28-611-106
140-31-612-039
126-24-213-030
177-34-610-055
177-34-614-028
124-34-313-020
176-34-114-059
163-21-211-012
162-26-512-100
161-30-112-026
176-34-111-013
138-08-611-089
163-13-317-015
163-07-812-095
179-16-811-070
124-28-211-026
163-08-719-041
124-33-316-020
179-30-211-011
264-28-310-015
191-14-716-032
139-35-412-070
161-03-711-032
070-03-610-004
124-35-613-004
176-20-110-017
139-14-411-037
124-27-716-036
125-28-810-092
177-27-315-004
139-07-512-056
163-31-416-012
264-21-318-004
124-35-313-037
138-36-407-036
177-31-715-067
138-34-313-070
163-06-112-004
137-35-717-058
177-27-711-247
161-08-111-065
161-03-410-080
124-21-710-010
137-36-113-082
138-26-618-069
125-05-312-052
177-36-110-082
138-28-210-022
139-09-721-034
125-26-611-051
163-31-416-016
138-22-417-019
161-10-111-049
124-31-226-020
138-23-111-042
140-22-810-020
177-21-113-061
140-31-718-033
123-30-411-030
125-20-115-020
139-03-810-089
140-06-818-010
176-34-516-025
140-08-115-003
139-23-410-231
139-19-411-029
163-29-316-055
139-35-512-023
163-08-210-007
124-26-216-015
139-24-413-050
139-25-115-024
163-22-512-083
140-22-211-140
140-33-416-064
161-15-310-165
161-04-217-012
137-12-313-066
139-19-612-204
178-20-814-095
179-28-812-107
139-08-215-039
139-13-514-004
138-03-310-015
124-23-315-013
161-09-611-007
140-07-211-001
125-17-310-226
140-06-312-062
161-16-210-326
161-15-814-028
139-26-415-064
138-03-710-002
139-30-514-002
140-19-110-055
138-08-513-033
139-30-321-014
176-20-511-132
177-14-515-009
176-20-714-230
177-13-214-147
177-19-703-002
163-30-311-056
176-15-511-011
162-03-612-083
162-14-613-006
178-23-210-035
138-28-815-002
162-09-616-081
176-27-311-056
176-27-311-057
176-27-311-058
176-27-311-060
176-27-310-037
176-27-310-040
176-27-410-063
176-27-410-064
176-27-410-065
176-27-410-066
176-27-410-067
176-27-310-041
176-27-310-042
176-27-311-054
162-13-214-021
178-03-512-027
179-21-511-025
124-17-213-039
176-14-212-031
124-33-812-054
177-21-513-030
191-02-613-003
191-13-611-034
177-01-402-001
190-18-510-050
137-34-217-009
178-20-715-073
161-35-213-031
163-19-815-091
163-25-212-005
176-08-711-024
163-22-212-032
163-14-711-020
176-11-612-007
176-08-316-058
163-33-211-031
164-11-418-002
040-23-801-018
002-24-510-033
139-20-810-046
138-25-713-140
138-25-713-095
177-25-612-013
176-24-811-024
137-35-218-022
176-24-112-087
138-24-713-007
140-30-213-106
124-32-510-057
137-25-717-045
138-25-511-038
139-13-210-001
140-19-714-019
124-33-212-027
179-20-110-062
178-10-512-036
163-29-310-026
140-28-513-040
200-26-301-003
139-26-712-122
138-12-312-031
140-31-210-017
139-20-512-062
140-19-311-010
162-02-610-064
139-10-513-063
138-21-621-047
162-27-611-147
163-14-315-035
176-29-710-040
191-11-412-003
125-35-413-040
162-20-715-284
163-20-615-044
163-17-616-017
178-30-411-022
177-25-213-062
137-34-315-045
177-12-621-064
162-23-411-092
177-13-712-001
099-04-201-012
140-18-211-044
140-18-211-076
140-18-211-136
140-18-212-057
161-29-510-028
140-31-715-121
139-11-810-010
139-11-810-015
139-11-810-055
140-30-115-014
140-30-115-020
140-30-115-025
140-30-115-040
140-31-612-090
139-14-512-129
162-15-314-031
140-30-115-012
140-31-612-113
179-19-510-058
178-13-711-010
140-30-313-027
140-31-612-063
161-30-110-004
140-23-117-008
140-30-115-089
138-24-110-091
140-18-211-078
140-31-612-076
140-18-211-130
140-31-113-017
140-30-315-003
140-18-212-011
140-30-313-011
140-19-812-030
140-30-115-005
140-30-115-006
178-01-612-017
140-18-212-005
162-11-310-342
162-25-112-010
140-31-612-079
140-30-115-049
161-09-216-182
140-31-715-146
140-31-612-046
138-23-112-027
140-31-612-081
138-24-111-036
140-18-210-123
140-18-211-068
177-34-210-173
137-36-413-002
001-18-510-023
176-28-401-002
176-10-812-049
138-15-611-303
138-22-510-006
137-26-413-003
163-32-214-010
126-24-413-017
161-21-610-033
179-30-311-026
179-17-811-038
177-21-610-029
161-29-801-015
139-15-210-204
161-15-815-042
161-30-210-033
001-17-415-033
125-27-816-017
176-36-115-006
124-35-414-096
161-19-314-009
137-13-610-049
138-03-218-044
138-13-210-005
162-21-714-043
162-05-510-010
162-02-312-004
162-15-216-218
138-28-118-039
138-17-715-011
177-27-111-093
137-26-515-001
138-02-214-012
139-35-816-025
125-12-811-002
190-17-412-005
138-28-513-220
163-14-412-030
125-13-316-017
162-25-113-011
125-24-610-037
177-27-711-167
179-20-213-015
161-05-710-054
176-15-212-018
161-15-815-027
138-08-611-055
176-11-410-025
138-20-610-040
176-18-111-010
161-30-813-005
163-17-614-016
163-17-217-031
162-25-614-075
177-23-817-384
164-25-410-115
201-32-801-013
161-19-712-027
163-33-811-056
163-26-210-373
125-24-611-056
125-20-310-068
162-23-611-025
190-18-410-035
137-34-112-016
124-17-514-082
138-33-226-005
162-10-812-161
176-36-716-042
178-17-713-012
138-32-819-334
177-36-713-042
177-14-712-001
177-22-213-115
163-01-402-004
178-18-417-035
162-21-710-115
163-18-516-003
178-30-812-026
125-07-815-025
137-12-514-041
138-20-820-090
176-17-812-002
162-10-114-284
178-17-514-026
176-13-111-144
138-30-317-018
163-17-116-071
163-18-614-067
137-12-310-096
161-11-220-004
138-30-412-003
163-09-110-070
177-20-710-650
163-05-813-057
163-33-111-038
124-28-322-064
162-20-712-106
162-20-712-175
162-20-712-206
163-16-510-015
191-04-210-087
161-26-411-116
191-24-812-105
125-23-110-067
179-28-416-017
138-16-111-067
179-28-815-013
161-29-811-028
190-19-314-012
138-03-710-008
163-33-211-025
125-13-618-006
163-19-411-005
163-25-316-034
139-19-415-023
124-21-413-072
191-05-121-014
138-02-510-007
177-22-511-039
162-10-612-005
162-10-714-006
179-30-311-017
179-29-415-027
179-30-716-010
178-24-111-002
178-21-613-019
177-21-410-050
125-36-516-052
163-25-310-067
179-30-821-006
179-30-819-011
179-30-818-040
179-30-818-033
162-15-302-009
162-18-614-049
140-23-614-054
177-25-513-011
178-28-310-020
177-12-611-003
176-28-211-141
178-17-719-028
124-27-614-019
125-34-610-023
191-01-216-025
138-18-213-028
164-02-112-098
140-05-510-243
179-27-709-007
164-13-617-018
163-30-816-064
177-12-710-084
140-35-110-112
137-23-811-073
177-22-518-016
137-12-810-095
126-24-214-066
178-29-111-102
138-28-415-052
176-12-511-018
161-30-401-018
163-23-611-003
001-03-314-036
176-11-511-091
178-08-810-021
178-09-213-011
001-16-410-042
071-17-401-001
161-19-514-017
178-29-513-049
162-13-405-005
138-08-516-069
177-15-810-082
163-20-512-009
186-16-114-038
163-14-610-023
177-10-818-086
177-26-416-010
163-24-612-759
163-24-612-298
176-20-511-034
164-02-813-067
163-31-613-015
176-10-310-052
178-31-817-014
190-05-210-032
177-15-219-023
125-26-511-011
163-08-110-008
138-17-419-017
177-02-314-010
138-03-312-030
163-12-206-017
138-13-801-068
176-11-517-012
162-09-616-197
163-26-110-729
163-17-116-047
176-05-219-028
163-24-714-263
163-30-519-001
176-06-113-030
161-04-410-159
190-18-314-005
179-05-314-074
125-10-403-001
138-33-416-003
176-21-311-001
138-20-213-028
164-11-713-014
124-20-212-072
138-33-418-128
178-04-410-135
162-15-810-114
176-27-820-053
161-34-618-030
176-05-713-004
126-13-314-087
139-34-613-081
125-34-612-041
163-03-216-023
137-25-413-023
161-16-610-030
138-16-516-203
001-09-610-035
162-05-814-010
139-29-112-132
138-16-120-330
178-05-711-008
163-29-710-010
137-34-816-071
124-29-213-031
138-03-412-012
176-12-618-010
125-11-512-069
125-07-814-063
001-08-210-035
002-01-813-062
175-15-601-003
175-24-502-001
175-24-501-006
177-13-112-060
163-23-311-027
138-16-713-101
176-33-810-069
177-30-502-002
177-27-115-175
177-27-115-110
177-27-115-098
125-21-111-017
125-16-515-026
138-22-315-095
137-36-312-041
162-03-515-107
163-16-811-037
177-34-511-037
137-14-810-017
138-36-212-012
163-26-311-016
160-31-511-035
138-17-614-094
139-29-613-015
162-23-410-057
179-18-214-031
162-25-813-009
125-18-810-036
163-23-810-005
163-17-217-012
163-22-511-011
163-26-813-016
138-23-717-030
125-20-214-011
219-09-101-002
177-34-611-079
160-22-817-033
138-33-617-010
163-08-313-029
177-23-712-012
138-16-415-037
138-16-415-058